block,trial,subj,trialType,cue,probe,response,rt,accuracy
0,0,s998,BY,B,Y,nan,nan,False
0,1,s998,NG,B,4,nan,nan,True
0,2,s998,BY,B,Y,nan,nan,False
0,3,s998,AX,A,X,nan,nan,False
0,4,s998,NG,A,1,nan,nan,True
0,5,s998,BY,B,Y,nan,nan,False
0,6,s998,NG,A,9,nan,nan,True
0,7,s998,BY,B,Y,nan,nan,False
0,8,s998,BY,B,Y,nan,nan,False
0,9,s998,AX,A,X,nan,nan,False
0,10,s998,AY,E,Y,nan,nan,False
0,11,s998,BY,B,Y,nan,nan,False
0,12,s998,NG,A,3,nan,nan,True
0,13,s998,NG,B,3,nan,nan,True
0,14,s998,AX,A,X,nan,nan,False
0,15,s998,BY,B,Y,nan,nan,False
0,16,s998,BY,B,Y,nan,nan,False
0,17,s998,AX,A,X,nan,nan,False
0,18,s998,BY,B,Y,nan,nan,False
0,19,s998,AX,A,X,nan,nan,False
0,20,s998,BY,B,Y,nan,nan,False
0,21,s998,AX,A,X,nan,nan,False
0,22,s998,NG,B,3,nan,nan,True
0,23,s998,AY,E,Y,nan,nan,False
0,24,s998,AX,A,X,nan,nan,False
0,25,s998,AX,A,X,nan,nan,False
0,26,s998,BY,B,Y,nan,nan,False
0,27,s998,AY,P,Y,nan,nan,False
0,28,s998,AX,A,X,nan,nan,False
0,29,s998,AX,A,X,nan,nan,False
0,30,s998,NG,A,4,nan,nan,True
0,31,s998,BX,B,M,nan,nan,False
0,32,s998,BY,B,Y,nan,nan,False
0,33,s998,AX,A,X,nan,nan,False
0,34,s998,AX,A,X,nan,nan,False
0,35,s998,BY,B,Y,nan,nan,False
0,36,s998,BX,B,X,nan,nan,False
0,37,s998,BY,B,Y,nan,nan,False
0,38,s998,AX,A,X,nan,nan,False
0,39,s998,BX,B,M,nan,nan,False
0,40,s998,AX,A,X,nan,nan,False
0,41,s998,BY,B,Y,nan,nan,False
0,42,s998,BX,B,Q,nan,nan,False
0,43,s998,NG,B,6,nan,nan,True
0,44,s998,BY,B,Y,nan,nan,False
0,45,s998,AX,A,X,nan,nan,False
0,46,s998,NG,B,2,nan,nan,True
0,47,s998,AY,P,Y,nan,nan,False
0,48,s998,BX,B,X,nan,nan,False
0,49,s998,NG,A,2,nan,nan,True
0,50,s998,BY,B,Y,nan,nan,False
0,51,s998,AY,S,Y,nan,nan,False
0,52,s998,NG,B,2,nan,nan,True
0,53,s998,AX,A,X,nan,nan,False
0,54,s998,AX,A,X,nan,nan,False
0,55,s998,BY,B,Y,nan,nan,False
0,56,s998,AX,A,X,nan,nan,False
0,57,s998,AX,A,X,nan,nan,False
0,58,s998,BY,B,Y,nan,nan,False
0,59,s998,AX,A,X,nan,nan,False
0,60,s998,BY,B,Y,nan,nan,False
0,61,s998,NG,A,9,nan,nan,True
1,0,s998,AX,nan,nan,nan,nan,nan
1,1,s998,BY,nan,nan,nan,nan,nan
1,2,s998,AX,nan,nan,nan,nan,nan
1,3,s998,BY,nan,nan,nan,nan,nan
1,4,s998,AX,nan,nan,nan,nan,nan
1,5,s998,BY,nan,nan,nan,nan,nan
1,6,s998,NG,nan,nan,nan,nan,nan
1,7,s998,BY,nan,nan,nan,nan,nan
1,8,s998,AY,nan,nan,nan,nan,nan
1,9,s998,BX,nan,nan,nan,nan,nan
1,10,s998,BY,nan,nan,nan,nan,nan
1,11,s998,AX,nan,nan,nan,nan,nan
1,12,s998,AX,nan,nan,nan,nan,nan
1,13,s998,AY,nan,nan,nan,nan,nan
1,14,s998,BY,nan,nan,nan,nan,nan
1,15,s998,NG,nan,nan,nan,nan,nan
1,16,s998,BY,nan,nan,nan,nan,nan
1,17,s998,AY,nan,nan,nan,nan,nan
1,18,s998,AX,nan,nan,nan,nan,nan
1,19,s998,NG,nan,nan,nan,nan,nan
1,20,s998,AX,nan,nan,nan,nan,nan
1,21,s998,AY,nan,nan,nan,nan,nan
1,22,s998,NG,nan,nan,nan,nan,nan
1,23,s998,AX,nan,nan,nan,nan,nan
1,24,s998,NG,nan,nan,nan,nan,nan
1,25,s998,BX,nan,nan,nan,nan,nan
1,26,s998,AX,nan,nan,nan,nan,nan
1,27,s998,NG,nan,nan,nan,nan,nan
1,28,s998,AX,nan,nan,nan,nan,nan
1,29,s998,BX,nan,nan,nan,nan,nan
1,30,s998,BY,nan,nan,nan,nan,nan
1,31,s998,BY,nan,nan,nan,nan,nan
1,32,s998,AX,nan,nan,nan,nan,nan
1,33,s998,BY,nan,nan,nan,nan,nan
1,34,s998,AX,nan,nan,nan,nan,nan
1,35,s998,BY,nan,nan,nan,nan,nan
1,36,s998,BX,nan,nan,nan,nan,nan
1,37,s998,NG,nan,nan,nan,nan,nan
1,38,s998,AX,nan,nan,nan,nan,nan
1,39,s998,AX,nan,nan,nan,nan,nan
1,40,s998,NG,nan,nan,nan,nan,nan
1,41,s998,NG,nan,nan,nan,nan,nan
1,42,s998,BY,nan,nan,nan,nan,nan
1,43,s998,AX,nan,nan,nan,nan,nan
1,44,s998,BY,nan,nan,nan,nan,nan
1,45,s998,BY,nan,nan,nan,nan,nan
1,46,s998,NG,nan,nan,nan,nan,nan
1,47,s998,AX,nan,nan,nan,nan,nan
1,48,s998,BX,nan,nan,nan,nan,nan
1,49,s998,BY,nan,nan,nan,nan,nan
1,50,s998,BY,nan,nan,nan,nan,nan
1,51,s998,NG,nan,nan,nan,nan,nan
1,52,s998,AX,nan,nan,nan,nan,nan
1,53,s998,AY,nan,nan,nan,nan,nan
1,54,s998,BY,nan,nan,nan,nan,nan
1,55,s998,AX,nan,nan,nan,nan,nan
1,56,s998,BY,nan,nan,nan,nan,nan
1,57,s998,NG,nan,nan,nan,nan,nan
1,58,s998,AX,nan,nan,nan,nan,nan
1,59,s998,BY,nan,nan,nan,nan,nan
1,60,s998,AX,nan,nan,nan,nan,nan
1,61,s998,BY,nan,nan,nan,nan,nan
2,0,s998,NG,nan,nan,nan,nan,nan
2,1,s998,AX,nan,nan,nan,nan,nan
2,2,s998,NG,nan,nan,nan,nan,nan
2,3,s998,BY,nan,nan,nan,nan,nan
2,4,s998,NG,nan,nan,nan,nan,nan
2,5,s998,BY,nan,nan,nan,nan,nan
2,6,s998,BY,nan,nan,nan,nan,nan
2,7,s998,AX,nan,nan,nan,nan,nan
2,8,s998,NG,nan,nan,nan,nan,nan
2,9,s998,BY,nan,nan,nan,nan,nan
2,10,s998,BY,nan,nan,nan,nan,nan
2,11,s998,AX,nan,nan,nan,nan,nan
2,12,s998,AY,nan,nan,nan,nan,nan
2,13,s998,BY,nan,nan,nan,nan,nan
2,14,s998,NG,nan,nan,nan,nan,nan
2,15,s998,BX,nan,nan,nan,nan,nan
2,16,s998,AX,nan,nan,nan,nan,nan
2,17,s998,NG,nan,nan,nan,nan,nan
2,18,s998,AX,nan,nan,nan,nan,nan
2,19,s998,AY,nan,nan,nan,nan,nan
2,20,s998,AX,nan,nan,nan,nan,nan
2,21,s998,AX,nan,nan,nan,nan,nan
2,22,s998,BX,nan,nan,nan,nan,nan
2,23,s998,BY,nan,nan,nan,nan,nan
2,24,s998,NG,nan,nan,nan,nan,nan
2,25,s998,AX,nan,nan,nan,nan,nan
2,26,s998,AX,nan,nan,nan,nan,nan
2,27,s998,NG,nan,nan,nan,nan,nan
2,28,s998,AX,nan,nan,nan,nan,nan
2,29,s998,BY,nan,nan,nan,nan,nan
2,30,s998,AY,nan,nan,nan,nan,nan
2,31,s998,NG,nan,nan,nan,nan,nan
2,32,s998,AX,nan,nan,nan,nan,nan
2,33,s998,AX,nan,nan,nan,nan,nan
2,34,s998,BX,nan,nan,nan,nan,nan
2,35,s998,BY,nan,nan,nan,nan,nan
2,36,s998,AX,nan,nan,nan,nan,nan
2,37,s998,BX,nan,nan,nan,nan,nan
2,38,s998,AX,nan,nan,nan,nan,nan
2,39,s998,BY,nan,nan,nan,nan,nan
2,40,s998,AX,nan,nan,nan,nan,nan
2,41,s998,NG,nan,nan,nan,nan,nan
2,42,s998,BY,nan,nan,nan,nan,nan
2,43,s998,BY,nan,nan,nan,nan,nan
2,44,s998,AX,nan,nan,nan,nan,nan
2,45,s998,AX,nan,nan,nan,nan,nan
2,46,s998,BY,nan,nan,nan,nan,nan
2,47,s998,AX,nan,nan,nan,nan,nan
2,48,s998,BY,nan,nan,nan,nan,nan
2,49,s998,AY,nan,nan,nan,nan,nan
2,50,s998,NG,nan,nan,nan,nan,nan
2,51,s998,NG,nan,nan,nan,nan,nan
2,52,s998,BY,nan,nan,nan,nan,nan
2,53,s998,BY,nan,nan,nan,nan,nan
2,54,s998,AX,nan,nan,nan,nan,nan
2,55,s998,AY,nan,nan,nan,nan,nan
2,56,s998,BY,nan,nan,nan,nan,nan
2,57,s998,BY,nan,nan,nan,nan,nan
2,58,s998,AX,nan,nan,nan,nan,nan
2,59,s998,BX,nan,nan,nan,nan,nan
2,60,s998,BY,nan,nan,nan,nan,nan
2,61,s998,BY,nan,nan,nan,nan,nan
3,0,s998,AY,nan,nan,nan,nan,nan
3,1,s998,AX,nan,nan,nan,nan,nan
3,2,s998,NG,nan,nan,nan,nan,nan
3,3,s998,BY,nan,nan,nan,nan,nan
3,4,s998,NG,nan,nan,nan,nan,nan
3,5,s998,NG,nan,nan,nan,nan,nan
3,6,s998,BX,nan,nan,nan,nan,nan
3,7,s998,AX,nan,nan,nan,nan,nan
3,8,s998,AX,nan,nan,nan,nan,nan
3,9,s998,BY,nan,nan,nan,nan,nan
3,10,s998,BY,nan,nan,nan,nan,nan
3,11,s998,AX,nan,nan,nan,nan,nan
3,12,s998,BY,nan,nan,nan,nan,nan
3,13,s998,AY,nan,nan,nan,nan,nan
3,14,s998,NG,nan,nan,nan,nan,nan
3,15,s998,BY,nan,nan,nan,nan,nan
3,16,s998,BY,nan,nan,nan,nan,nan
3,17,s998,AY,nan,nan,nan,nan,nan
3,18,s998,NG,nan,nan,nan,nan,nan
3,19,s998,BY,nan,nan,nan,nan,nan
3,20,s998,AX,nan,nan,nan,nan,nan
3,21,s998,BX,nan,nan,nan,nan,nan
3,22,s998,BY,nan,nan,nan,nan,nan
3,23,s998,BY,nan,nan,nan,nan,nan
3,24,s998,AX,nan,nan,nan,nan,nan
3,25,s998,BX,nan,nan,nan,nan,nan
3,26,s998,NG,nan,nan,nan,nan,nan
3,27,s998,BX,nan,nan,nan,nan,nan
3,28,s998,AX,nan,nan,nan,nan,nan
3,29,s998,AX,nan,nan,nan,nan,nan
3,30,s998,BX,nan,nan,nan,nan,nan
3,31,s998,AY,nan,nan,nan,nan,nan
3,32,s998,AX,nan,nan,nan,nan,nan
3,33,s998,AY,nan,nan,nan,nan,nan
3,34,s998,BY,nan,nan,nan,nan,nan
3,35,s998,NG,nan,nan,nan,nan,nan
3,36,s998,AX,nan,nan,nan,nan,nan
3,37,s998,AX,nan,nan,nan,nan,nan
3,38,s998,NG,nan,nan,nan,nan,nan
3,39,s998,AX,nan,nan,nan,nan,nan
3,40,s998,BY,nan,nan,nan,nan,nan
3,41,s998,BY,nan,nan,nan,nan,nan
3,42,s998,NG,nan,nan,nan,nan,nan
3,43,s998,AX,nan,nan,nan,nan,nan
3,44,s998,AX,nan,nan,nan,nan,nan
3,45,s998,BY,nan,nan,nan,nan,nan
3,46,s998,AX,nan,nan,nan,nan,nan
3,47,s998,AX,nan,nan,nan,nan,nan
3,48,s998,NG,nan,nan,nan,nan,nan
3,49,s998,NG,nan,nan,nan,nan,nan
3,50,s998,BY,nan,nan,nan,nan,nan
3,51,s998,BY,nan,nan,nan,nan,nan
3,52,s998,AX,nan,nan,nan,nan,nan
3,53,s998,BY,nan,nan,nan,nan,nan
3,54,s998,BY,nan,nan,nan,nan,nan
3,55,s998,AX,nan,nan,nan,nan,nan
3,56,s998,BY,nan,nan,nan,nan,nan
3,57,s998,AX,nan,nan,nan,nan,nan
3,58,s998,AX,nan,nan,nan,nan,nan
3,59,s998,NG,nan,nan,nan,nan,nan
3,60,s998,BY,nan,nan,nan,nan,nan
3,61,s998,BY,nan,nan,nan,nan,nan
