block,trial,subj,trialType,cue,probe,response,rt,accuracy
0,0,s003,AY,A,M,right,0.44567394256591797,True
0,1,s003,BY,P,J,left,0.5768840312957764,False
0,2,s003,AY,A,F,right,0.47822093963623047,True
0,3,s003,AX,A,X,left,0.2477419376373291,True
0,4,s003,BY,E,F,right,1.24387788772583,True
0,5,s003,NG,A,1,right,0.39798879623413086,False
0,6,s003,NG,A,4,right,0.3789529800415039,False
0,7,s003,BX,S,X,right,0.5610568523406982,True
0,8,s003,BY,E,J,right,0.44738292694091797,True
0,9,s003,AX,A,X,left,0.35396599769592285,True
0,10,s003,AX,A,X,left,0.4087860584259033,True
0,11,s003,BY,S,F,right,0.3490428924560547,True
0,12,s003,AY,A,M,right,0.43519020080566406,True
0,13,s003,BY,G,F,right,0.558474063873291,True
0,14,s003,AX,A,X,right,0.4207179546356201,False
0,15,s003,NG,R,4,right,0.6641581058502197,False
0,16,s003,NG,P,3,right,0.3545858860015869,False
0,17,s003,AX,A,X,left,0.2811250686645508,True
0,18,s003,AX,A,X,right,0.3707590103149414,False
0,19,s003,AY,A,Q,right,0.3448150157928467,True
0,20,s003,BY,S,U,right,0.3598480224609375,True
0,21,s003,NG,A,3,right,0.4301152229309082,False
0,22,s003,AX,A,X,left,0.3221089839935303,True
0,23,s003,BY,P,M,right,0.3379549980163574,True
0,24,s003,BY,R,J,right,0.27250099182128906,True
0,25,s003,AX,A,X,left,0.6989209651947021,True
0,26,s003,AX,A,X,left,0.37188291549682617,True
0,27,s003,BY,R,U,right,0.3773179054260254,True
0,28,s003,AX,A,X,left,0.3351888656616211,True
0,29,s003,AX,A,X,left,0.6142981052398682,True
0,30,s003,BY,R,Q,right,0.41022396087646484,True
0,31,s003,BY,G,Q,right,0.42312002182006836,True
0,32,s003,NG,E,5,right,0.2907228469848633,False
0,33,s003,AX,A,X,left,0.37950992584228516,True
0,34,s003,BY,E,U,right,0.38562893867492676,True
0,35,s003,AX,A,X,left,0.3266589641571045,True
0,36,s003,BY,G,Q,right,0.33402299880981445,True
0,37,s003,AX,A,X,left,0.3495659828186035,True
0,38,s003,BY,P,M,right,1.251986026763916,True
0,39,s003,NG,S,4,left,0.38944005966186523,False
0,40,s003,AX,A,X,left,0.33868885040283203,True
0,41,s003,BY,G,J,nan,nan,False
0,42,s003,BX,R,X,right,0.3762969970703125,True
0,43,s003,BX,R,X,right,0.21396303176879883,True
0,44,s003,BY,P,J,right,0.33866214752197266,True
0,45,s003,BX,R,X,right,0.32211899757385254,True
0,46,s003,NG,A,7,left,0.2176821231842041,False
0,47,s003,AX,A,X,left,0.30960917472839355,True
1,0,s003,AX,A,X,left,0.312762975692749,True
1,1,s003,NG,E,9,right,0.21694111824035645,False
1,2,s003,BY,R,F,right,0.30112791061401367,True
1,3,s003,NG,G,2,nan,nan,True
1,4,s003,BY,S,J,right,0.348114013671875,True
1,5,s003,AX,A,X,left,0.36295509338378906,True
1,6,s003,AX,A,X,left,0.3377871513366699,True
1,7,s003,BY,G,M,right,0.43315601348876953,True
1,8,s003,BY,S,U,right,1.0116140842437744,True
1,9,s003,NG,A,8,right,0.4715409278869629,False
1,10,s003,AX,A,X,left,0.4572880268096924,True
1,11,s003,BY,P,U,right,0.4596118927001953,True
1,12,s003,NG,R,6,nan,nan,True
1,13,s003,AX,A,X,left,0.36454010009765625,True
1,14,s003,AX,A,X,left,0.3549320697784424,True
1,15,s003,BX,G,X,right,1.0016231536865234,True
1,16,s003,AY,A,U,right,0.8848109245300293,True
1,17,s003,AX,A,X,left,0.3416311740875244,True
1,18,s003,AX,A,X,left,0.9886341094970703,True
1,19,s003,AY,A,J,right,0.44928908348083496,True
1,20,s003,BY,E,F,right,0.4271700382232666,True
1,21,s003,AX,A,X,left,0.3673250675201416,True
1,22,s003,NG,A,7,nan,nan,True
1,23,s003,BY,S,M,right,0.3555788993835449,True
1,24,s003,NG,A,7,nan,nan,True
1,25,s003,NG,A,4,nan,nan,True
1,26,s003,BY,G,M,right,0.45509815216064453,True
1,27,s003,BY,G,U,right,0.4256110191345215,True
1,28,s003,AY,A,F,right,0.5250248908996582,True
1,29,s003,BY,G,U,right,0.38882899284362793,True
1,30,s003,AX,A,X,left,0.45776891708374023,True
1,31,s003,AX,A,X,left,0.4196910858154297,True
1,32,s003,BY,E,Q,right,0.4878978729248047,True
1,33,s003,BY,S,J,right,0.5688550472259521,True
1,34,s003,AX,A,X,left,0.3422110080718994,True
1,35,s003,AX,A,X,left,0.4774458408355713,True
1,36,s003,BY,E,Q,right,0.37526702880859375,True
1,37,s003,BX,R,X,right,0.38866496086120605,True
1,38,s003,AX,A,X,left,0.338054895401001,True
1,39,s003,AX,A,X,left,0.36925506591796875,True
1,40,s003,BX,S,X,right,0.29477596282958984,True
1,41,s003,BX,S,X,right,0.4480879306793213,True
1,42,s003,BY,S,Q,right,0.4194071292877197,True
1,43,s003,AY,A,M,right,0.5265789031982422,True
1,44,s003,NG,P,6,nan,nan,True
1,45,s003,BY,P,M,right,0.37305688858032227,True
1,46,s003,AX,A,X,right,0.3945949077606201,False
1,47,s003,BY,S,J,right,0.42417001724243164,True
2,0,s003,BY,S,Q,right,0.43891191482543945,True
2,1,s003,AX,A,X,left,0.36217689514160156,True
2,2,s003,AX,A,X,left,0.3280971050262451,True
2,3,s003,NG,G,7,right,0.3441131114959717,False
2,4,s003,BY,P,M,right,1.2632341384887695,True
2,5,s003,BX,R,X,right,1.0245120525360107,True
2,6,s003,BX,G,X,right,0.45989298820495605,True
2,7,s003,BY,S,U,right,0.5263519287109375,True
2,8,s003,AX,A,X,left,0.4218780994415283,True
2,9,s003,AX,A,X,left,0.28923606872558594,True
2,10,s003,BY,P,U,right,0.33859705924987793,True
2,11,s003,BY,P,M,right,0.4338250160217285,True
2,12,s003,AX,A,X,left,0.5566370487213135,True
2,13,s003,AY,A,F,right,0.4992179870605469,True
2,14,s003,BY,G,J,right,0.36359405517578125,True
2,15,s003,BX,P,X,right,0.6016571521759033,True
2,16,s003,BY,E,J,right,0.4939730167388916,True
2,17,s003,NG,A,8,nan,nan,True
2,18,s003,BX,G,X,right,0.6135940551757812,True
2,19,s003,NG,S,7,right,0.47341108322143555,False
2,20,s003,NG,R,7,nan,nan,True
2,21,s003,BY,E,J,right,0.4977908134460449,True
2,22,s003,AX,A,X,right,0.7546188831329346,False
2,23,s003,NG,E,6,nan,nan,True
2,24,s003,BY,P,F,right,0.35933494567871094,True
2,25,s003,BY,G,U,right,0.3574531078338623,True
2,26,s003,AX,A,X,left,0.4603250026702881,True
2,27,s003,AX,A,X,right,1.0864531993865967,False
2,28,s003,BY,E,M,right,0.6789278984069824,True
2,29,s003,AX,A,X,left,0.4083719253540039,True
2,30,s003,AX,A,X,left,0.4689521789550781,True
2,31,s003,NG,A,4,nan,nan,True
2,32,s003,AY,A,Q,nan,nan,False
2,33,s003,AX,A,X,left,0.8596150875091553,True
2,34,s003,AY,A,M,right,0.4694681167602539,True
2,35,s003,NG,A,9,nan,nan,True
2,36,s003,AX,A,X,left,0.4135580062866211,True
2,37,s003,BY,G,F,right,0.37784910202026367,True
2,38,s003,AY,A,J,right,0.935222864151001,True
2,39,s003,BY,R,F,right,0.5583062171936035,True
2,40,s003,AX,A,X,left,0.38845109939575195,True
2,41,s003,BY,E,M,right,0.3374919891357422,True
2,42,s003,NG,A,7,nan,nan,True
2,43,s003,AX,A,X,left,0.32718896865844727,True
2,44,s003,AX,A,X,left,1.0069479942321777,True
2,45,s003,BY,G,F,right,0.34665799140930176,True
2,46,s003,AX,A,X,left,0.34564805030822754,True
2,47,s003,BY,G,Q,right,0.9530510902404785,True
3,0,s003,AY,A,M,right,0.46443986892700195,True
3,1,s003,BY,S,Q,right,0.3864459991455078,True
3,2,s003,AX,A,X,left,0.3594179153442383,True
3,3,s003,NG,G,8,nan,nan,True
3,4,s003,AX,A,X,left,0.2926769256591797,True
3,5,s003,BX,R,X,right,0.42958903312683105,True
3,6,s003,AX,A,X,left,0.3134469985961914,True
3,7,s003,AX,A,X,left,0.31418418884277344,True
3,8,s003,NG,A,4,nan,nan,True
3,9,s003,BY,E,M,right,0.4252140522003174,True
3,10,s003,BY,G,M,right,0.43682408332824707,True
3,11,s003,NG,S,8,nan,nan,True
3,12,s003,AX,A,X,left,0.3184778690338135,True
3,13,s003,BY,E,J,right,0.34250712394714355,True
3,14,s003,BY,E,F,right,0.485476016998291,True
3,15,s003,BX,G,X,right,0.3499579429626465,True
3,16,s003,NG,P,9,nan,nan,True
3,17,s003,BY,R,F,right,0.9231598377227783,True
3,18,s003,AX,A,X,left,0.3303678035736084,True
3,19,s003,AX,A,X,left,0.3459620475769043,True
3,20,s003,BY,E,U,right,0.39334607124328613,True
3,21,s003,BY,S,U,right,0.4626030921936035,True
3,22,s003,AY,A,F,right,0.8884110450744629,True
3,23,s003,BY,S,M,right,0.34535694122314453,True
3,24,s003,BX,R,X,right,0.5204339027404785,True
3,25,s003,BY,S,J,right,0.367872953414917,True
3,26,s003,AX,A,X,left,0.326077938079834,True
3,27,s003,AX,A,X,left,0.36577510833740234,True
3,28,s003,NG,R,3,nan,nan,True
3,29,s003,BY,E,F,right,0.6099758148193359,True
3,30,s003,NG,A,6,nan,nan,True
3,31,s003,NG,A,6,nan,nan,True
3,32,s003,AX,A,X,left,0.4509868621826172,True
3,33,s003,AX,A,X,left,0.3254721164703369,True
3,34,s003,BY,E,Q,right,0.43730902671813965,True
3,35,s003,AX,A,X,left,0.8880140781402588,True
3,36,s003,AY,A,Q,right,0.5369160175323486,True
3,37,s003,AX,A,X,left,0.3997490406036377,True
3,38,s003,AX,A,X,left,0.4839630126953125,True
3,39,s003,BY,G,M,right,0.34102892875671387,True
3,40,s003,BY,E,U,right,0.3322930335998535,True
3,41,s003,AY,A,M,right,0.9150240421295166,True
3,42,s003,BX,R,X,right,0.31525397300720215,True
3,43,s003,BY,S,M,right,0.4038209915161133,True
3,44,s003,AX,A,X,left,0.7123980522155762,True
3,45,s003,BY,G,J,right,0.4000511169433594,True
3,46,s003,AX,A,X,left,0.3807060718536377,True
3,47,s003,NG,A,3,nan,nan,True
